# Output of JWST_backgrounds version 1.3.0
# background cache version 1.2

# for RA=150.089999, DEC=2.21 On calendar day 140
# Columns: 
# - Wavelength [micron] 
# - Total background (MJy/sr)
# - In-field zodiacal light (MJy/sr)
# - In-field galactic light (MJy/sr)
# - Stray light (MJy/sr)
# - Thermal self-emission (MJy/sr)
0.500000    0.3582    0.3279    0.0019    0.0284    0.0000
0.600000    0.4802    0.4334    0.0026    0.0441    0.0000
0.700000    0.5379    0.4866    0.0033    0.0481    0.0000
0.800000    0.5570    0.5023    0.0039    0.0508    0.0000
0.900000    0.5494    0.4933    0.0044    0.0516    0.0000
1.000000    0.5383    0.4699    0.0049    0.0634    0.0000
1.100000    0.5046    0.4389    0.0053    0.0603    0.0000
1.200000    0.4676    0.4048    0.0057    0.0571    0.0000
1.300000    0.4392    0.3786    0.0061    0.0545    0.0000
1.400000    0.4194    0.3605    0.0065    0.0525    0.0000
1.500000    0.3996    0.3422    0.0068    0.0506    0.0000
1.600000    0.3802    0.3244    0.0071    0.0487    0.0000
1.700000    0.3616    0.3074    0.0073    0.0469    0.0000
1.800000    0.3402    0.2912    0.0075    0.0415    0.0000
1.900000    0.3236    0.2760    0.0077    0.0399    0.0000
2.000000    0.3081    0.2618    0.0078    0.0384    0.0000
2.100000    0.2940    0.2485    0.0080    0.0376    0.0000
2.200000    0.2809    0.2361    0.0080    0.0367    0.0000
2.300000    0.2652    0.2213    0.0082    0.0358    0.0000
2.400000    0.2509    0.2077    0.0083    0.0349    0.0000
2.500000    0.2376    0.1952    0.0083    0.0341    0.0000
2.600000    0.2254    0.1836    0.0084    0.0333    0.0001
2.700000    0.2141    0.1730    0.0084    0.0326    0.0001
2.800000    0.2038    0.1631    0.0084    0.0320    0.0002
2.900000    0.1868    0.1540    0.0084    0.0239    0.0004
3.000000    0.1781    0.1456    0.0085    0.0234    0.0006
3.100000    0.1699    0.1377    0.0085    0.0227    0.0010
3.200000    0.1632    0.1305    0.0089    0.0223    0.0015
3.300000    0.1592    0.1237    0.0107    0.0225    0.0023
3.400000    0.1501    0.1174    0.0085    0.0209    0.0033
3.500000    0.1790    0.1421    0.0084    0.0238    0.0047
3.700000    0.2022    0.1595    0.0084    0.0256    0.0088
4.000000    0.2778    0.2188    0.0085    0.0308    0.0196
4.250000    0.3863    0.3086    0.0084    0.0343    0.0350
4.500000    0.5549    0.4439    0.0085    0.0449    0.0575
4.750000    0.7874    0.6304    0.0086    0.0589    0.0894
5.000000    1.0864    0.8701    0.0089    0.0761    0.1314
5.100000    1.2493    1.0027    0.0090    0.0862    0.1514
5.200000    1.4300    1.1502    0.0091    0.0973    0.1734
5.300000    1.6320    1.3133    0.0111    0.1102    0.1974
5.400000    1.8486    1.4926    0.0097    0.1229    0.2234
5.500000    2.0881    1.6884    0.0105    0.1377    0.2515
5.700000    2.6336    2.1314    0.0160    0.1723    0.3138
5.900000    3.2550    2.6450    0.0160    0.2096    0.3844
6.100000    3.9791    3.2303    0.0307    0.2549    0.4633
6.300000    4.8146    3.8875    0.0621    0.3148    0.5503
6.500000    5.6481    4.6154    0.0325    0.3550    0.6451
6.700000    6.5998    5.4121    0.0296    0.4107    0.7475
6.900000    7.6387    6.2745    0.0336    0.4737    0.8569
7.100000    8.7496    7.1989    0.0367    0.5408    0.9732
7.300000    9.9426    8.1808    0.0497    0.6161    1.0960
7.500000    11.2209    9.2152    0.0787    0.7020    1.2250
7.700000    12.5397    10.2969    0.0969    0.7869    1.3590
7.900000    13.8608    11.4201    0.0806    0.8600    1.5000
8.100000    15.2162    12.5792    0.0587    0.9333    1.6450
8.300000    16.6348    13.7683    0.0535    1.0160    1.7970
8.500000    18.0995    14.9815    0.0588    1.1052    1.9540
8.700000    19.5777    16.2131    0.0555    1.1922    2.1170
8.900000    21.0544    17.4576    0.0372    1.2736    2.2860
9.100000    22.5668    18.7096    0.0324    1.3619    2.4630
9.300000    24.0941    19.9639    0.0304    1.4518    2.6480
9.500000    25.6302    21.2158    0.0298    1.5426    2.8420
9.700000    27.1707    22.4608    0.0319    1.6320    3.0460
9.900000    28.7140    23.6945    0.0333    1.7232    3.2630
10.100000    30.2472    24.9132    0.0323    1.8087    3.4930
10.300000    31.7720    26.1134    0.0315    1.8891    3.7380
10.500000    33.2986    27.2916    0.0351    1.9698    4.0020
10.700000    34.8184    28.4452    0.0380    2.0482    4.2870
10.900000    36.3355    29.5714    0.0435    2.1256    4.5950
11.100000    37.8708    30.6681    0.0653    2.2084    4.9290
11.300000    39.4169    31.7331    0.0972    2.2936    5.2930
11.500000    40.8954    32.7648    0.0843    2.3553    5.6910
11.700000    42.3524    33.7618    0.0570    2.4076    6.1260
11.900000    43.8491    34.7227    0.0544    2.4689    6.6030
12.100000    45.4963    35.7772    0.0567    2.5374    7.1250
12.300000    47.3103    36.9364    0.0598    2.6152    7.6990
12.500000    49.1536    38.0726    0.0622    2.6908    8.3280
12.700000    51.0314    39.1848    0.0641    2.7644    9.0180
12.900000    52.9385    40.2721    0.0593    2.8331    9.7740
13.100000    54.8822    41.3339    0.0504    2.8979    10.6000
13.300000    56.8887    42.3694    0.0463    2.9631    11.5100
13.500000    58.9630    43.3782    0.0465    3.0284    12.5100
13.700000    61.0856    44.3599    0.0449    3.0909    13.5900
13.900000    63.2867    45.3142    0.0418    3.1507    14.7800
14.100000    65.5636    46.2409    0.0424    3.2103    16.0700
14.300000    67.9285    47.1400    0.0413    3.2672    17.4800
14.500000    70.3933    48.0114    0.0399    3.3220    19.0200
14.700000    72.9475    48.8551    0.0379    3.3746    20.6800
14.900000    75.6343    49.6712    0.0372    3.4259    22.5000
15.100000    78.4423    50.4599    0.0369    3.4755    24.4700
15.300000    81.3801    51.2214    0.0359    3.5229    26.6000
15.500000    84.4760    51.9559    0.0395    3.5706    28.9100
16.500000    102.6625    55.2360    0.0417    3.7748    43.6100
17.500000    126.9307    57.8991    0.0440    3.9376    65.0500
18.500000    159.9442    60.0049    0.0460    4.0632    95.8300
19.500000    205.2212    61.6165    0.0482    4.1565    139.4000
20.500000    266.9689    62.7966    0.0506    4.2218    199.9000
21.500000    350.5201    63.6040    0.0529    4.2631    282.6000
22.500000    461.9323    64.0928    0.0553    4.2842    393.5000
23.500000    607.9571    64.3112    0.0577    4.2882    539.3000
24.500000    795.9401    64.3018    0.0602    4.2781    727.3000
25.500000    1032.9214    63.5389    0.0632    4.2193    965.1000
26.500000    1327.2612    62.0788    0.0667    4.1157    1261.0000
27.500000    1686.6026    60.5254    0.0702    4.0069    1622.0000
28.500000    2118.8758    58.9069    0.0741    3.8949    2056.0000
29.500000    2631.1053    57.2464    0.0780    3.7809    2570.0000
30.500000    3231.3112    55.5629    0.0820    3.6663    3172.0000
31.000000    3565.4104    54.7175    0.0840    3.6090    3507.0000
